"E5_agua2 - RawData"
"Wavelength nm."	"Abs."
190.000	 
191.000	 
192.000	 
193.000	 
194.000	 
195.000	 
196.000	 
197.000	 
198.000	 
199.000	 
200.000	3.939896
201.000	4.000000
202.000	3.637436
203.000	3.874115
204.000	3.870407
205.000	3.758774
206.000	3.919403
207.000	3.842545
208.000	3.740509
209.000	3.607651
210.000	4.000000
211.000	3.882767
212.000	3.741180
213.000	4.000000
214.000	3.966995
215.000	3.736740
216.000	3.952972
217.000	4.000000
218.000	3.927307
219.000	3.950455
220.000	3.914673
221.000	3.830582
222.000	3.915314
223.000	3.849228
224.000	4.000000
225.000	3.902328
226.000	3.871384
227.000	3.907761
228.000	3.774506
229.000	3.539795
230.000	3.312195
231.000	3.220306
232.000	3.083145
233.000	2.941605
234.000	2.874954
235.000	2.819305
236.000	2.689438
237.000	2.637955
238.000	2.583252
239.000	2.547287
240.000	2.476593
241.000	2.426117
242.000	2.351395
243.000	2.304596
244.000	2.272507
245.000	2.224457
246.000	2.193222
247.000	2.163651
248.000	2.129318
249.000	2.113586
250.000	2.080688
251.000	2.069931
252.000	2.068130
253.000	2.046753
254.000	2.050949
255.000	2.050568
256.000	2.067505
257.000	2.081528
258.000	2.107224
259.000	2.110123
260.000	2.127579
261.000	2.140915
262.000	2.179321
263.000	2.180588
264.000	2.211777
265.000	2.219894
266.000	2.232559
267.000	2.227036
268.000	2.242157
269.000	2.236572
270.000	2.220078
271.000	2.225174
272.000	2.208389
273.000	2.192032
274.000	2.139526
275.000	2.153473
276.000	2.095291
277.000	2.059189
278.000	2.032822
279.000	2.001312
280.000	1.969284
281.000	1.929749
282.000	1.885208
283.000	1.846664
284.000	1.806458
285.000	1.774017
286.000	1.736038
287.000	1.714783
288.000	1.680801
289.000	1.652725
290.000	1.627075
291.000	1.594147
292.000	1.569748
293.000	1.556015
294.000	1.533005
295.000	1.509094
296.000	1.497589
297.000	1.487579
298.000	1.472427
299.000	1.458008
300.000	1.455795
301.000	1.451248
302.000	1.449478
303.000	1.448059
304.000	1.460159
305.000	1.458511
306.000	1.470596
307.000	1.472672
308.000	1.486450
309.000	1.481232
310.000	1.492523
311.000	1.497971
312.000	1.514114
313.000	1.513840
314.000	1.536987
315.000	1.545731
316.000	1.547043
317.000	1.553436
318.000	1.556213
319.000	1.556274
320.000	1.566345
321.000	1.557770
322.000	1.557373
323.000	1.562714
324.000	1.560577
325.000	1.560608
326.000	1.554703
327.000	1.545181
328.000	1.544037
329.000	1.530716
330.000	1.510864
331.000	1.489456
332.000	1.482864
333.000	1.458130
334.000	1.453552
335.000	1.434845
336.000	1.402237
337.000	1.389648
338.000	1.366348
339.000	1.344620
340.000	1.342087
341.000	1.316589
342.000	1.288391
343.000	1.250854
344.000	1.222672
345.000	1.201584
346.000	1.177490
347.000	1.140549
348.000	1.109085
349.000	1.084106
350.000	1.049118
351.000	1.019623
352.000	0.989532
353.000	0.961655
354.000	0.932404
355.000	0.905289
356.000	0.876297
357.000	0.852127
358.000	0.820724
359.000	0.795563
360.000	0.775040
361.000	0.752762
362.000	0.733078
363.000	0.709290
364.000	0.687042
365.000	0.667694
366.000	0.651367
367.000	0.630661
368.000	0.615143
369.000	0.596634
370.000	0.582520
371.000	0.567291
372.000	0.554138
373.000	0.540817
374.000	0.527939
375.000	0.515106
376.000	0.502594
377.000	0.489929
378.000	0.478256
379.000	0.467636
380.000	0.457733
381.000	0.446732
382.000	0.438293
383.000	0.427841
384.000	0.419754
385.000	0.410797
386.000	0.402100
387.000	0.394272
388.000	0.385864
389.000	0.378281
390.000	0.370148
391.000	0.363098
392.000	0.355179
393.000	0.347809
394.000	0.340149
395.000	0.333038
396.000	0.326294
397.000	0.319305
398.000	0.311920
399.000	0.304703
400.000	0.297775
401.000	0.291061
402.000	0.283737
403.000	0.277267
404.000	0.270447
405.000	0.263657
406.000	0.257294
407.000	0.251083
408.000	0.244995
409.000	0.238464
410.000	0.232788
411.000	0.226654
412.000	0.220779
413.000	0.215622
414.000	0.210251
415.000	0.204453
416.000	0.199387
417.000	0.193924
418.000	0.188919
419.000	0.184341
420.000	0.179413
421.000	0.175018
422.000	0.170120
423.000	0.165466
424.000	0.161011
425.000	0.156616
426.000	0.152451
427.000	0.148483
428.000	0.144241
429.000	0.140625
430.000	0.136734
431.000	0.132950
432.000	0.129196
433.000	0.125687
434.000	0.122345
435.000	0.119232
436.000	0.116196
437.000	0.113037
438.000	0.110382
439.000	0.107422
440.000	0.104919
441.000	0.102249
442.000	0.099655
443.000	0.097229
444.000	0.095001
445.000	0.092804
446.000	0.090652
447.000	0.088531
448.000	0.086716
449.000	0.085007
450.000	0.083313
451.000	0.081345
452.000	0.079544
453.000	0.078079
454.000	0.076538
455.000	0.074951
456.000	0.073792
457.000	0.072495
458.000	0.071350
459.000	0.070129
460.000	0.069031
461.000	0.068253
462.000	0.067337
463.000	0.066391
464.000	0.065628
465.000	0.064880
466.000	0.064301
467.000	0.063614
468.000	0.062943
469.000	0.062561
470.000	0.062103
471.000	0.061996
472.000	0.061554
473.000	0.061295
474.000	0.061127
475.000	0.060974
476.000	0.060928
477.000	0.061020
478.000	0.060959
479.000	0.061234
480.000	0.061340
481.000	0.061539
482.000	0.061844
483.000	0.062180
484.000	0.062424
485.000	0.062790
486.000	0.063278
487.000	0.063766
488.000	0.064209
489.000	0.064758
490.000	0.065445
491.000	0.065994
492.000	0.066635
493.000	0.067352
494.000	0.068222
495.000	0.068817
496.000	0.069641
497.000	0.070694
498.000	0.071365
499.000	0.072449
500.000	0.073364
501.000	0.074417
502.000	0.075638
503.000	0.076431
504.000	0.077637
505.000	0.078644
506.000	0.079788
507.000	0.081055
508.000	0.082214
509.000	0.083313
510.000	0.084671
511.000	0.085678
512.000	0.086960
513.000	0.088242
514.000	0.089493
515.000	0.090668
516.000	0.091995
517.000	0.093353
518.000	0.094391
519.000	0.095901
520.000	0.097183
521.000	0.098541
522.000	0.099899
523.000	0.101410
524.000	0.102859
525.000	0.104263
526.000	0.105774
527.000	0.107376
528.000	0.108963
529.000	0.110458
530.000	0.112320
531.000	0.113663
532.000	0.115524
533.000	0.117355
534.000	0.118896
535.000	0.120453
536.000	0.122269
537.000	0.124008
538.000	0.125717
539.000	0.127579
540.000	0.129410
541.000	0.131165
542.000	0.132919
543.000	0.134659
544.000	0.136490
545.000	0.138412
546.000	0.140198
547.000	0.141922
548.000	0.143814
549.000	0.145508
550.000	0.147324
551.000	0.149002
552.000	0.150742
553.000	0.152512
554.000	0.154037
555.000	0.155838
556.000	0.157532
557.000	0.158997
558.000	0.160492
559.000	0.162201
560.000	0.163498
561.000	0.165024
562.000	0.166428
563.000	0.167969
564.000	0.169235
565.000	0.170746
566.000	0.172195
567.000	0.173615
568.000	0.175049
569.000	0.176422
570.000	0.177872
571.000	0.179306
572.000	0.180771
573.000	0.182098
574.000	0.183380
575.000	0.184738
576.000	0.185898
577.000	0.187363
578.000	0.188583
579.000	0.189941
580.000	0.191132
581.000	0.192505
582.000	0.193741
583.000	0.194687
584.000	0.195892
585.000	0.197006
586.000	0.198029
587.000	0.199265
588.000	0.200256
589.000	0.201218
590.000	0.202072
591.000	0.203049
592.000	0.203690
593.000	0.204559
594.000	0.205353
595.000	0.205948
596.000	0.206467
597.000	0.206787
598.000	0.207138
599.000	0.207489
600.000	0.207581
601.000	0.207642
602.000	0.207336
603.000	0.207199
604.000	0.206726
605.000	0.206360
606.000	0.205566
607.000	0.204773
608.000	0.203873
609.000	0.202789
610.000	0.201599
611.000	0.200043
612.000	0.198334
613.000	0.196716
614.000	0.194641
615.000	0.192352
616.000	0.190048
617.000	0.187546
618.000	0.184677
619.000	0.181793
620.000	0.178589
621.000	0.175461
622.000	0.171783
623.000	0.168137
624.000	0.164200
625.000	0.160110
626.000	0.155945
627.000	0.151657
628.000	0.147278
629.000	0.142868
630.000	0.138443
631.000	0.134293
632.000	0.129929
633.000	0.125458
634.000	0.121353
635.000	0.117157
636.000	0.113083
637.000	0.108627
638.000	0.104858
639.000	0.100876
640.000	0.097351
641.000	0.093628
642.000	0.090256
643.000	0.086639
644.000	0.083511
645.000	0.080536
646.000	0.077744
647.000	0.075073
648.000	0.072525
649.000	0.070023
650.000	0.067902
651.000	0.065704
652.000	0.063660
653.000	0.061859
654.000	0.060028
655.000	0.058380
656.000	0.056946
657.000	0.055557
658.000	0.054214
659.000	0.052948
660.000	0.051743
661.000	0.050629
662.000	0.049500
663.000	0.048599
664.000	0.047516
665.000	0.046631
666.000	0.045792
667.000	0.044937
668.000	0.044113
669.000	0.043304
670.000	0.042542
671.000	0.041840
672.000	0.041214
673.000	0.040527
674.000	0.039749
675.000	0.038971
676.000	0.038376
677.000	0.037766
678.000	0.036957
679.000	0.036392
680.000	0.035797
681.000	0.035187
682.000	0.034576
683.000	0.033951
684.000	0.033417
685.000	0.032791
686.000	0.031998
687.000	0.031403
688.000	0.030869
689.000	0.030334
690.000	0.029678
691.000	0.029007
692.000	0.028366
693.000	0.027725
694.000	0.027206
695.000	0.026489
696.000	0.026047
697.000	0.025421
698.000	0.024734
699.000	0.024170
700.000	0.023651
701.000	0.023163
702.000	0.022522
703.000	0.022018
704.000	0.021561
705.000	0.020966
706.000	0.020355
707.000	0.019882
708.000	0.019318
709.000	0.018921
710.000	0.018433
711.000	0.017975
712.000	0.017471
713.000	0.017136
714.000	0.016510
715.000	0.015976
716.000	0.015594
717.000	0.015030
718.000	0.014526
719.000	0.014099
720.000	0.013763
721.000	0.013489
722.000	0.013062
723.000	0.012482
724.000	0.012253
725.000	0.011902
726.000	0.011627
727.000	0.011185
728.000	0.011002
729.000	0.010651
730.000	0.010300
731.000	0.010132
732.000	0.009750
733.000	0.009430
734.000	0.009079
735.000	0.008850
736.000	0.008560
737.000	0.008392
738.000	0.008179
739.000	0.007843
740.000	0.007599
741.000	0.007462
742.000	0.007248
743.000	0.007004
744.000	0.006821
745.000	0.006805
746.000	0.006546
747.000	0.006439
748.000	0.006332
749.000	0.006149
750.000	0.005951
751.000	0.005737
752.000	0.005630
753.000	0.005539
754.000	0.005417
755.000	0.005310
756.000	0.005249
757.000	0.005081
758.000	0.004974
759.000	0.004761
760.000	0.004715
761.000	0.004547
762.000	0.004410
763.000	0.004242
764.000	0.004410
765.000	0.004288
766.000	0.004166
767.000	0.004074
768.000	0.003952
769.000	0.003906
770.000	0.003876
771.000	0.003784
772.000	0.003647
773.000	0.003647
774.000	0.003677
775.000	0.003464
776.000	0.003479
777.000	0.003387
778.000	0.003220
779.000	0.003342
780.000	0.003296
781.000	0.003220
782.000	0.003159
783.000	0.003113
784.000	0.003098
785.000	0.002991
786.000	0.002869
787.000	0.002884
788.000	0.002884
789.000	0.002777
790.000	0.002747
791.000	0.002640
792.000	0.002686
793.000	0.002609
794.000	0.002625
795.000	0.002563
796.000	0.002518
797.000	0.002502
798.000	0.002594
799.000	0.002548
800.000	0.002502
801.000	 
802.000	 
803.000	 
804.000	 
805.000	 
806.000	 
807.000	 
808.000	 
809.000	 
810.000	 
811.000	 
812.000	 
813.000	 
814.000	 
815.000	 
816.000	 
817.000	 
818.000	 
819.000	 
820.000	 
821.000	 
822.000	 
823.000	 
824.000	 
825.000	 
826.000	 
827.000	 
828.000	 
829.000	 
830.000	 
831.000	 
832.000	 
833.000	 
834.000	 
835.000	 
836.000	 
837.000	 
838.000	 
839.000	 
840.000	 
841.000	 
842.000	 
843.000	 
844.000	 
845.000	 
846.000	 
847.000	 
848.000	 
849.000	 
850.000	 
851.000	 
852.000	 
853.000	 
854.000	 
855.000	 
856.000	 
857.000	 
858.000	 
859.000	 
860.000	 
861.000	 
862.000	 
863.000	 
864.000	 
865.000	 
866.000	 
867.000	 
868.000	 
869.000	 
870.000	 
871.000	 
872.000	 
873.000	 
874.000	 
875.000	 
876.000	 
877.000	 
878.000	 
879.000	 
880.000	 
881.000	 
882.000	 
883.000	 
884.000	 
885.000	 
886.000	 
887.000	 
888.000	 
889.000	 
890.000	 
891.000	 
892.000	 
893.000	 
894.000	 
895.000	 
896.000	 
897.000	 
898.000	 
899.000	 
900.000	 
901.000	 
902.000	 
903.000	 
904.000	 
905.000	 
906.000	 
907.000	 
908.000	 
909.000	 
910.000	 
911.000	 
912.000	 
913.000	 
914.000	 
915.000	 
916.000	 
917.000	 
918.000	 
919.000	 
920.000	 
921.000	 
922.000	 
923.000	 
924.000	 
925.000	 
926.000	 
927.000	 
928.000	 
929.000	 
930.000	 
931.000	 
932.000	 
933.000	 
934.000	 
935.000	 
936.000	 
937.000	 
938.000	 
939.000	 
940.000	 
941.000	 
942.000	 
943.000	 
944.000	 
945.000	 
946.000	 
947.000	 
948.000	 
949.000	 
950.000	 
951.000	 
952.000	 
953.000	 
954.000	 
955.000	 
956.000	 
957.000	 
958.000	 
959.000	 
960.000	 
961.000	 
962.000	 
963.000	 
964.000	 
965.000	 
966.000	 
967.000	 
968.000	 
969.000	 
970.000	 
971.000	 
972.000	 
973.000	 
974.000	 
975.000	 
976.000	 
977.000	 
978.000	 
979.000	 
980.000	 
981.000	 
982.000	 
983.000	 
984.000	 
985.000	 
986.000	 
987.000	 
988.000	 
989.000	 
990.000	 
991.000	 
992.000	 
993.000	 
994.000	 
995.000	 
996.000	 
997.000	 
998.000	 
999.000	 
1000.000	 
1001.000	 
1002.000	 
1003.000	 
1004.000	 
1005.000	 
1006.000	 
1007.000	 
1008.000	 
1009.000	 
1010.000	 
1011.000	 
1012.000	 
1013.000	 
1014.000	 
1015.000	 
1016.000	 
1017.000	 
1018.000	 
1019.000	 
1020.000	 
1021.000	 
1022.000	 
1023.000	 
1024.000	 
1025.000	 
1026.000	 
1027.000	 
1028.000	 
1029.000	 
1030.000	 
1031.000	 
1032.000	 
1033.000	 
1034.000	 
1035.000	 
1036.000	 
1037.000	 
1038.000	 
1039.000	 
1040.000	 
1041.000	 
1042.000	 
1043.000	 
1044.000	 
1045.000	 
1046.000	 
1047.000	 
1048.000	 
1049.000	 
1050.000	 
1051.000	 
1052.000	 
1053.000	 
1054.000	 
1055.000	 
1056.000	 
1057.000	 
1058.000	 
1059.000	 
1060.000	 
1061.000	 
1062.000	 
1063.000	 
1064.000	 
1065.000	 
1066.000	 
1067.000	 
1068.000	 
1069.000	 
1070.000	 
1071.000	 
1072.000	 
1073.000	 
1074.000	 
1075.000	 
1076.000	 
1077.000	 
1078.000	 
1079.000	 
1080.000	 
1081.000	 
1082.000	 
1083.000	 
1084.000	 
1085.000	 
1086.000	 
1087.000	 
1088.000	 
1089.000	 
1090.000	 
1091.000	 
1092.000	 
1093.000	 
1094.000	 
1095.000	 
1096.000	 
1097.000	 
1098.000	 
1099.000	 
1100.000	 
